File: dados/tga_eucalyptus.txt
File Name:	C:\Rodrigo Simetti\2016 - 06 Termo Tulio\Eucalyptus DTG-60H 2016-05-28 15-50.tad

[File Information]
File Name:	Eucalyptus DTG-60H 2016-05-28 15-50.tad
Sample Name:	Eucalyptus 02
Acquisition Date	16/05/28
Acquisition Time	15:51:28(-0300)
Detector:	DTG-60H
Serial No:	C30574700307
Operator:	Rodrigo Simetti
Atmosphere:	Nitrogen
Flow Rate:	50[ml/min]
Annotation:	Trabalho 2016
	Eucalyptus
Cell:	Alumina
Sample Weight:	4.246[mg]
Molecular Weight:	0.00

[Program]
[Sampling Parameters]
Sampling Time [ sec ]:	1.0
Start Acquisition Setting:	Acquisition measurement simultaneously
Stop Acquisition Setting:	Acquisition measurement simultaneously

[Temp Program]
Temp Rate	Hold Temp	Hold Time	Gas
[C/min ]	[  C   ]	[  min  ]
10.00	600.0	0	1

[Data]
Time	Temp	DTA	TGA
sec	C	uV	mg
0.000	39.879	-6.750	4.246
3.000	40.088	-6.871	4.242
6.000	40.433	-6.987	4.238
9.000	40.585	-7.093	4.233
12.000	40.777	-7.191	4.229
15.000	41.113	-7.280	4.224
18.000	41.185	-7.362	4.219
21.000	41.473	-7.436	4.214
24.000	41.590	-7.499	4.209
27.000	41.813	-7.562	4.204
30.000	42.014	-7.613	4.199
33.000	42.018	-7.658	4.195
36.000	42.291	-7.694	4.190
39.000	42.435	-7.723	4.185
42.000	42.490	-7.743	4.181
45.000	42.684	-7.753	4.176
48.000	42.719	-7.757	4.171
51.000	42.971	-7.754	4.166
54.000	42.996	-7.745	4.162
57.000	43.065	-7.734	4.157
60.000	43.356	-7.715	4.152
63.000	43.288	-7.687	4.148
66.000	43.475	-7.653	4.143
69.000	43.567	-7.614	4.139
72.000	43.631	-7.576	4.135
75.000	43.884	-7.529	4.131
78.000	43.792	-7.479	4.127
81.000	44.036	-7.431	4.123
84.000	44.095	-7.377	4.119
87.000	44.159	-7.321	4.115
90.000	44.385	-7.263	4.111
93.000	44.464	-7.204	4.107
96.000	44.603	-7.148	4.103
99.000	44.743	-7.093	4.099
102.000	44.863	-7.042	4.096
105.000	45.120	-6.995	4.092
108.000	45.205	-6.948	4.089
111.000	45.392	-6.904	4.086
114.000	45.733	-6.863	4.082
117.000	45.869	-6.827	4.079
120.000	46.125	-6.795	4.076
123.000	46.364	-6.767	4.073
126.000	46.683	-6.751	4.069
129.000	47.064	-6.739	4.066
132.000	47.257	-6.735	4.063
135.000	47.717	-6.740	4.060
138.000	48.128	-6.754	4.057
141.000	48.406	-6.775	4.054
144.000	48.935	-6.799	4.050
147.000	49.342	-6.830	4.047
150.000	49.857	-6.868	4.044
153.000	50.353	-6.910	4.041
156.000	50.738	-6.958	4.039
159.000	51.481	-7.013	4.036
162.000	51.911	-7.071	4.033
165.000	52.446	-7.133	4.030
168.000	53.155	-7.193	4.027
171.000	53.662	-7.257	4.023
174.000	54.408	-7.321	4.021
177.000	54.907	-7.387	4.017
180.000	55.558	-7.454	4.014
183.000	56.272	-7.518	4.011
186.000	56.829	-7.578	4.008
189.000	57.552	-7.636	4.006
192.000	58.223	-7.690	4.003
195.000	58.781	-7.739	4.000
198.000	59.533	-7.782	3.997
201.000	60.154	-7.817	3.994
204.000	60.839	-7.847	3.991
207.000	61.496	-7.864	3.989
210.000	62.075	-7.873	3.986
213.000	62.823	-7.875	3.983
216.000	63.436	-7.867	3.981
219.000	63.960	-7.850	3.978
222.000	64.711	-7.821	3.976
225.000	65.264	-7.786	3.973
228.000	65.907	-7.743	3.971
231.000	66.486	-7.693	3.968
234.000	66.935	-7.635	3.966
237.000	67.723	-7.571	3.964
240.000	68.166	-7.500	3.962
243.000	68.708	-7.420	3.960
246.000	69.355	-7.333	3.958
249.000	69.848	-7.244	3.956
252.000	70.464	-7.150	3.955
255.000	70.890	-7.053	3.953
258.000	71.447	-6.954	3.951
261.000	72.094	-6.852	3.950
264.000	72.484	-6.745	3.948
267.000	73.058	-6.640	3.947
270.000	73.605	-6.532	3.946
273.000	74.037	-6.423	3.945
276.000	74.604	-6.312	3.943
279.000	75.052	-6.204	3.942
282.000	75.572	-6.098	3.941
285.000	76.110	-5.989	3.940
288.000	76.504	-5.881	3.939
291.000	77.035	-5.774	3.938
294.000	77.548	-5.670	3.937
297.000	77.933	-5.570	3.936
300.000	78.539	-5.471	3.935
303.000	78.972	-5.376	3.934
306.000	79.468	-5.287	3.933
309.000	80.018	-5.200	3.933
312.000	80.355	-5.117	3.932
315.000	81.012	-5.038	3.932
318.000	81.426	-4.959	3.931
321.000	81.904	-4.883	3.930
324.000	82.492	-4.808	3.930
327.000	82.940	-4.739	3.930
330.000	83.495	-4.672	3.929
333.000	83.936	-4.606	3.929
336.000	84.440	-4.543	3.929
339.000	85.052	-4.485	3.928
342.000	85.488	-4.427	3.927
345.000	85.970	-4.374	3.927
348.000	86.615	-4.323	3.927
351.000	87.082	-4.276	3.926
354.000	87.594	-4.235	3.926
357.000	88.121	-4.196	3.926
360.000	88.653	-4.162	3.926
363.000	89.277	-4.132	3.926
366.000	89.714	-4.102	3.925
369.000	90.261	-4.074	3.925
372.000	90.963	-4.045	3.925
375.000	91.367	-4.020	3.925
378.000	91.980	-3.997	3.924
381.000	92.484	-3.975	3.924
384.000	93.062	-3.955	3.924
387.000	93.709	-3.933	3.924
390.000	94.102	-3.911	3.924
393.000	94.742	-3.891	3.924
396.000	95.346	-3.871	3.924
399.000	95.767	-3.851	3.924
402.000	96.374	-3.830	3.924
405.000	96.905	-3.810	3.924
408.000	97.451	-3.792	3.924
411.000	98.035	-3.772	3.924
414.000	98.454	-3.754	3.923
417.000	99.089	-3.737	3.923
420.000	99.652	-3.721	3.924
423.000	100.053	-3.706	3.924
426.000	100.698	-3.689	3.923
429.000	101.222	-3.674	3.924
432.000	101.709	-3.661	3.923
435.000	102.305	-3.648	3.923
438.000	102.737	-3.635	3.924
441.000	103.370	-3.622	3.924
444.000	103.874	-3.608	3.923
447.000	104.319	-3.595	3.924
450.000	105.003	-3.581	3.923
453.000	105.384	-3.570	3.923
456.000	105.928	-3.558	3.923
459.000	106.454	-3.546	3.923
462.000	106.943	-3.534	3.923
465.000	107.531	-3.523	3.924
468.000	107.985	-3.511	3.923
471.000	108.491	-3.500	3.923
474.000	109.100	-3.489	3.924
477.000	109.506	-3.479	3.924
480.000	110.032	-3.471	3.924
483.000	110.617	-3.464	3.924
486.000	111.072	-3.462	3.924
489.000	111.673	-3.459	3.924
492.000	112.140	-3.455	3.924
495.000	112.662	-3.455	3.924
498.000	113.293	-3.457	3.924
501.000	113.670	-3.458	3.924
504.000	114.265	-3.458	3.924
507.000	114.859	-3.459	3.923
510.000	115.290	-3.463	3.924
513.000	115.920	-3.462	3.924
516.000	116.332	-3.465	3.924
519.000	116.967	-3.468	3.924
522.000	117.515	-3.472	3.924
525.000	117.937	-3.475	3.924
528.000	118.582	-3.480	3.924
531.000	119.087	-3.486	3.924
534.000	119.576	-3.493	3.924
537.000	120.143	-3.500	3.924
540.000	120.662	-3.506	3.924
543.000	121.241	-3.514	3.925
546.000	121.796	-3.518	3.925
549.000	122.258	-3.521	3.925
552.000	122.891	-3.523	3.925
555.000	123.410	-3.527	3.925
558.000	123.883	-3.531	3.925
561.000	124.503	-3.535	3.925
564.000	125.009	-3.541	3.925
567.000	125.592	-3.546	3.925
570.000	126.128	-3.549	3.925
573.000	126.542	-3.555	3.925
576.000	127.228	-3.560	3.926
579.000	127.658	-3.561	3.926
582.000	128.214	-3.562	3.926
585.000	128.803	-3.562	3.926
588.000	129.261	-3.562	3.926
591.000	129.890	-3.562	3.926
594.000	130.342	-3.561	3.926
597.000	130.866	-3.562	3.926
600.000	131.475	-3.562	3.926
603.000	131.921	-3.560	3.927
606.000	132.458	-3.561	3.927
609.000	133.059	-3.562	3.926
612.000	133.531	-3.562	3.927
615.000	134.073	-3.560	3.927
618.000	134.589	-3.557	3.927
621.000	135.104	-3.557	3.927
624.000	135.694	-3.558	3.927
627.000	136.092	-3.558	3.927
630.000	136.672	-3.558	3.927
633.000	137.270	-3.559	3.927
636.000	137.631	-3.560	3.928
639.000	138.237	-3.559	3.928
642.000	138.711	-3.556	3.928
645.000	139.239	-3.558	3.928
648.000	139.816	-3.558	3.927
651.000	140.211	-3.560	3.927
654.000	140.837	-3.564	3.928
657.000	141.352	-3.569	3.928
660.000	141.782	-3.571	3.928
663.000	142.357	-3.573	3.928
666.000	142.877	-3.576	3.928
669.000	143.414	-3.581	3.928
672.000	143.957	-3.583	3.928
675.000	144.402	-3.584	3.928
678.000	145.009	-3.590	3.928
681.000	145.521	-3.597	3.928
684.000	145.924	-3.606	3.928
687.000	146.555	-3.610	3.928
690.000	147.052	-3.613	3.928
693.000	147.573	-3.617	3.928
696.000	148.129	-3.620	3.928
699.000	148.531	-3.623	3.928
702.000	149.195	-3.628	3.928
705.000	149.648	-3.631	3.928
708.000	150.118	-3.638	3.928
711.000	150.784	-3.642	3.929
714.000	151.223	-3.650	3.929
717.000	151.812	-3.657	3.929
720.000	152.292	-3.665	3.929
723.000	152.807	-3.673	3.929
726.000	153.407	-3.683	3.929
729.000	153.889	-3.690	3.929
732.000	154.415	-3.698	3.929
735.000	155.058	-3.706	3.929
738.000	155.503	-3.711	3.929
741.000	156.025	-3.719	3.929
744.000	156.592	-3.724	3.929
747.000	157.079	-3.731	3.929
750.000	157.688	-3.737	3.929
753.000	158.147	-3.741	3.929
756.000	158.656	-3.745	3.929
759.000	159.281	-3.749	3.929
762.000	159.657	-3.750	3.929
765.000	160.258	-3.751	3.929
768.000	160.784	-3.753	3.930
771.000	161.252	-3.755	3.930
774.000	161.857	-3.757	3.929
777.000	162.253	-3.759	3.929
780.000	162.840	-3.763	3.929
783.000	163.380	-3.766	3.929
786.000	163.779	-3.767	3.929
789.000	164.365	-3.770	3.929
792.000	164.928	-3.774	3.929
795.000	165.397	-3.779	3.929
798.000	165.910	-3.781	3.929
801.000	166.389	-3.786	3.929
804.000	166.942	-3.792	3.929
807.000	167.478	-3.794	3.929
810.000	167.873	-3.797	3.929
813.000	168.488	-3.800	3.929
816.000	169.024	-3.802	3.930
819.000	169.435	-3.806	3.929
822.000	170.011	-3.806	3.929
825.000	170.466	-3.807	3.930
828.000	171.067	-3.810	3.930
831.000	171.570	-3.815	3.930
834.000	171.977	-3.819	3.930
837.000	172.672	-3.825	3.930
840.000	173.118	-3.831	3.930
843.000	173.603	-3.836	3.930
846.000	174.171	-3.842	3.930
849.000	174.667	-3.851	3.930
852.000	175.226	-3.859	3.930
855.000	175.729	-3.866	3.930
858.000	176.194	-3.874	3.930
861.000	176.813	-3.883	3.930
864.000	177.284	-3.890	3.930
867.000	177.756	-3.898	3.930
870.000	178.371	-3.902	3.929
873.000	178.811	-3.909	3.929
876.000	179.384	-3.915	3.929
879.000	179.890	-3.918	3.930
882.000	180.350	-3.924	3.930
885.000	180.989	-3.930	3.929
888.000	181.397	-3.933	3.929
891.000	181.937	-3.939	3.930
894.000	182.520	-3.944	3.930
897.000	182.940	-3.948	3.929
900.000	183.551	-3.952	3.929
903.000	183.979	-3.958	3.929
906.000	184.539	-3.963	3.929
909.000	185.098	-3.968	3.929
912.000	185.539	-3.974	3.929
915.000	186.093	-3.981	3.929
918.000	186.669	-3.986	3.929
921.000	187.105	-3.990	3.929
924.000	187.640	-3.995	3.929
927.000	188.158	-4.002	3.929
930.000	188.645	-4.013	3.929
933.000	189.238	-4.021	3.929
936.000	189.656	-4.029	3.929
939.000	190.268	-4.037	3.929
942.000	190.805	-4.043	3.928
945.000	191.198	-4.050	3.928
948.000	191.806	-4.055	3.928
951.000	192.306	-4.061	3.928
954.000	192.822	-4.068	3.928
957.000	193.375	-4.073	3.928
960.000	193.810	-4.078	3.928
963.000	194.461	-4.085	3.928
966.000	194.908	-4.092	3.928
969.000	195.374	-4.100	3.928
972.000	195.946	-4.108	3.928
975.000	196.462	-4.116	3.928
978.000	196.963	-4.124	3.928
981.000	197.493	-4.130	3.928
984.000	197.969	-4.137	3.928
987.000	198.552	-4.146	3.927
990.000	199.035	-4.153	3.927
993.000	199.467	-4.159	3.927
996.000	200.105	-4.164	3.926
999.000	200.559	-4.171	3.926
1002.000	201.068	-4.179	3.926
1005.000	201.633	-4.187	3.926
1008.000	202.062	-4.196	3.926
1011.000	202.681	-4.204	3.926
1014.000	203.126	-4.209	3.925
1017.000	203.592	-4.214	3.925
1020.000	204.227	-4.220	3.925
1023.000	204.638	-4.226	3.925
1026.000	205.205	-4.232	3.925
1029.000	205.688	-4.242	3.924
1032.000	206.176	-4.254	3.924
1035.000	206.745	-4.265	3.924
1038.000	207.182	-4.274	3.923
1041.000	207.692	-4.284	3.923
1044.000	208.285	-4.295	3.923
1047.000	208.722	-4.305	3.923
1050.000	209.222	-4.319	3.922
1053.000	209.776	-4.328	3.922
1056.000	210.215	-4.340	3.922
1059.000	210.819	-4.350	3.921
1062.000	211.279	-4.357	3.921
1065.000	211.794	-4.366	3.921
1068.000	212.398	-4.374	3.921
1071.000	212.763	-4.382	3.920
1074.000	213.353	-4.392	3.920
1077.000	213.881	-4.402	3.920
1080.000	214.318	-4.414	3.919
1083.000	214.905	-4.421	3.919
1086.000	215.343	-4.426	3.918
1089.000	215.930	-4.435	3.918
1092.000	216.454	-4.445	3.918
1095.000	216.875	-4.455	3.917
1098.000	217.467	-4.466	3.917
1101.000	218.010	-4.480	3.916
1104.000	218.472	-4.494	3.916
1107.000	219.028	-4.507	3.915
1110.000	219.533	-4.519	3.915
1113.000	220.072	-4.534	3.914
1116.000	220.611	-4.544	3.914
1119.000	221.026	-4.553	3.913
1122.000	221.659	-4.562	3.912
1125.000	222.186	-4.571	3.912
1128.000	222.613	-4.581	3.911
1131.000	223.204	-4.587	3.910
1134.000	223.657	-4.595	3.910
1137.000	224.216	-4.603	3.909
1140.000	224.708	-4.611	3.908
1143.000	225.143	-4.618	3.907
1146.000	225.803	-4.627	3.907
1149.000	226.212	-4.633	3.906
1152.000	226.696	-4.641	3.905
1155.000	227.255	-4.648	3.904
1158.000	227.739	-4.656	3.904
1161.000	228.263	-4.666	3.903
1164.000	228.756	-4.675	3.902
1167.000	229.226	-4.685	3.901
1170.000	229.825	-4.697	3.900
1173.000	230.277	-4.707	3.899
1176.000	230.741	-4.721	3.898
1179.000	231.363	-4.732	3.898
1182.000	231.792	-4.746	3.897
1185.000	232.356	-4.760	3.896
1188.000	232.866	-4.774	3.894
1191.000	233.338	-4.792	3.893
1194.000	233.950	-4.810	3.892
1197.000	234.353	-4.827	3.891
1200.000	234.908	-4.844	3.889
1203.000	235.498	-4.861	3.888
1206.000	235.914	-4.878	3.887
1209.000	236.502	-4.893	3.885
1212.000	236.959	-4.907	3.884
1215.000	237.494	-4.923	3.882
1218.000	238.037	-4.936	3.881
1221.000	238.486	-4.950	3.879
1224.000	239.029	-4.966	3.878
1227.000	239.603	-4.981	3.876
1230.000	240.041	-4.995	3.875
1233.000	240.580	-5.008	3.873
1236.000	241.077	-5.022	3.871
1239.000	241.562	-5.038	3.870
1242.000	242.150	-5.051	3.868
1245.000	242.558	-5.061	3.866
1248.000	243.157	-5.075	3.864
1251.000	243.689	-5.089	3.862
1254.000	244.078	-5.101	3.860
1257.000	244.690	-5.115	3.858
1260.000	245.175	-5.127	3.856
1263.000	245.674	-5.141	3.854
1266.000	246.207	-5.153	3.851
1269.000	246.670	-5.165	3.849
1272.000	247.291	-5.181	3.847
1275.000	247.762	-5.195	3.845
1278.000	248.207	-5.211	3.842
1281.000	248.833	-5.226	3.840
1284.000	249.322	-5.240	3.838
1287.000	249.815	-5.253	3.835
1290.000	250.350	-5.267	3.832
1293.000	250.845	-5.281	3.830
1296.000	251.385	-5.298	3.826
1299.000	251.884	-5.311	3.824
1302.000	252.311	-5.325	3.821
1305.000	252.966	-5.338	3.818
1308.000	253.402	-5.352	3.815
1311.000	253.919	-5.366	3.812
1314.000	254.483	-5.378	3.808
1317.000	254.893	-5.391	3.806
1320.000	255.500	-5.407	3.803
1323.000	255.934	-5.419	3.799
1326.000	256.402	-5.434	3.796
1329.000	257.029	-5.450	3.792
1332.000	257.432	-5.466	3.789
1335.000	257.967	-5.482	3.785
1338.000	258.464	-5.499	3.781
1341.000	258.943	-5.519	3.777
1344.000	259.507	-5.536	3.773
1347.000	259.960	-5.552	3.769
1350.000	260.482	-5.571	3.766
1353.000	261.052	-5.588	3.762
1356.000	261.488	-5.606	3.758
1359.000	262.005	-5.625	3.753
1362.000	262.569	-5.644	3.749
1365.000	262.991	-5.666	3.744
1368.000	263.570	-5.685	3.740
1371.000	263.995	-5.703	3.735
1374.000	264.565	-5.722	3.731
1377.000	265.116	-5.740	3.726
1380.000	265.496	-5.758	3.721
1383.000	266.090	-5.777	3.716
1386.000	266.608	-5.798	3.711
1389.000	267.049	-5.819	3.706
1392.000	267.605	-5.838	3.700
1395.000	268.059	-5.858	3.695
1398.000	268.644	-5.881	3.690
1401.000	269.116	-5.901	3.684
1404.000	269.544	-5.922	3.678
1407.000	270.157	-5.945	3.672
1410.000	270.645	-5.969	3.666
1413.000	271.109	-5.994	3.660
1416.000	271.670	-6.016	3.654
1419.000	272.158	-6.040	3.648
1422.000	272.681	-6.066	3.641
1425.000	273.178	-6.088	3.635
1428.000	273.632	-6.114	3.628
1431.000	274.263	-6.140	3.621
1434.000	274.699	-6.167	3.614
1437.000	275.192	-6.191	3.607
1440.000	275.787	-6.215	3.600
1443.000	276.226	-6.240	3.593
1446.000	276.799	-6.264	3.586
1449.000	277.243	-6.288	3.578
1452.000	277.741	-6.314	3.570
1455.000	278.348	-6.340	3.562
1458.000	278.777	-6.363	3.555
1461.000	279.299	-6.387	3.547
1464.000	279.837	-6.410	3.539
1467.000	280.287	-6.435	3.531
1470.000	280.815	-6.462	3.522
1473.000	281.307	-6.488	3.514
1476.000	281.804	-6.516	3.505
1479.000	282.381	-6.542	3.497
1482.000	282.823	-6.568	3.488
1485.000	283.321	-6.593	3.480
1488.000	283.898	-6.617	3.471
1491.000	284.296	-6.638	3.462
1494.000	284.859	-6.658	3.453
1497.000	285.330	-6.675	3.444
1500.000	285.846	-6.695	3.435
1503.000	286.430	-6.713	3.426
1506.000	286.785	-6.730	3.417
1509.000	287.406	-6.747	3.408
1512.000	287.898	-6.763	3.399
1515.000	288.349	-6.780	3.389
1518.000	288.898	-6.794	3.380
1521.000	289.408	-6.807	3.371
1524.000	289.922	-6.821	3.362
1527.000	290.456	-6.830	3.353
1530.000	290.881	-6.841	3.344
1533.000	291.481	-6.853	3.335
1536.000	291.972	-6.864	3.326
1539.000	292.405	-6.873	3.316
1542.000	292.978	-6.882	3.307
1545.000	293.490	-6.889	3.298
1548.000	293.964	-6.896	3.289
1551.000	294.496	-6.900	3.279
1554.000	294.929	-6.902	3.270
1557.000	295.570	-6.908	3.261
1560.000	296.000	-6.911	3.252
1563.000	296.466	-6.914	3.243
1566.000	297.103	-6.917	3.234
1569.000	297.493	-6.918	3.224
1572.000	298.047	-6.919	3.215
1575.000	298.501	-6.920	3.206
1578.000	299.015	-6.922	3.197
1581.000	299.569	-6.926	3.188
1584.000	300.003	-6.928	3.179
1587.000	300.521	-6.930	3.170
1590.000	301.095	-6.932	3.162
1593.000	301.518	-6.935	3.153
1596.000	302.039	-6.938	3.144
1599.000	302.538	-6.942	3.135
1602.000	303.030	-6.946	3.127
1605.000	303.602	-6.950	3.117
1608.000	304.049	-6.954	3.109
1611.000	304.535	-6.960	3.100
1614.000	305.135	-6.966	3.091
1617.000	305.534	-6.973	3.082
1620.000	306.107	-6.980	3.073
1623.000	306.598	-6.987	3.065
1626.000	307.091	-6.996	3.056
1629.000	307.685	-7.003	3.048
1632.000	308.080	-7.009	3.039
1635.000	308.661	-7.016	3.031
1638.000	309.179	-7.026	3.022
1641.000	309.608	-7.036	3.013
1644.000	310.170	-7.046	3.004
1647.000	310.680	-7.057	2.995
1650.000	311.161	-7.072	2.987
1653.000	311.705	-7.085	2.978
1656.000	312.158	-7.096	2.969
1659.000	312.707	-7.109	2.960
1662.000	313.234	-7.119	2.952
1665.000	313.653	-7.130	2.943
1668.000	314.246	-7.142	2.934
1671.000	314.739	-7.157	2.925
1674.000	315.226	-7.171	2.916
1677.000	315.798	-7.185	2.908
1680.000	316.197	-7.198	2.899
1683.000	316.802	-7.213	2.890
1686.000	317.254	-7.228	2.881
1689.000	317.702	-7.245	2.872
1692.000	318.329	-7.262	2.863
1695.000	318.787	-7.279	2.854
1698.000	319.295	-7.298	2.845
1701.000	319.800	-7.315	2.836
1704.000	320.293	-7.333	2.827
1707.000	320.839	-7.353	2.818
1710.000	321.306	-7.371	2.808
1713.000	321.782	-7.394	2.799
1716.000	322.387	-7.418	2.789
1719.000	322.835	-7.442	2.780
1722.000	323.318	-7.465	2.771
1725.000	323.887	-7.488	2.761
1728.000	324.303	-7.514	2.751
1731.000	324.901	-7.541	2.741
1734.000	325.338	-7.566	2.731
1737.000	325.839	-7.594	2.721
1740.000	326.440	-7.622	2.711
1743.000	326.836	-7.649	2.701
1746.000	327.377	-7.675	2.691
1749.000	327.913	-7.702	2.681
1752.000	328.362	-7.732	2.671
1755.000	328.911	-7.762	2.660
1758.000	329.346	-7.792	2.649
1761.000	329.923	-7.826	2.639
1764.000	330.421	-7.857	2.628
1767.000	330.856	-7.889	2.617
1770.000	331.385	-7.923	2.606
1773.000	331.928	-7.956	2.594
1776.000	332.363	-7.991	2.583
1779.000	332.915	-8.026	2.571
1782.000	333.394	-8.062	2.560
1785.000	333.906	-8.099	2.548
1788.000	334.438	-8.138	2.536
1791.000	334.839	-8.182	2.524
1794.000	335.465	-8.227	2.511
1797.000	335.963	-8.276	2.499
1800.000	336.417	-8.325	2.486
1803.000	336.989	-8.370	2.473
1806.000	337.433	-8.417	2.460
1809.000	338.015	-8.467	2.446
1812.000	338.503	-8.517	2.433
1815.000	338.915	-8.567	2.419
1818.000	339.520	-8.620	2.405
1821.000	339.995	-8.674	2.390
1824.000	340.481	-8.727	2.376
1827.000	341.018	-8.777	2.361
1830.000	341.527	-8.826	2.346
1833.000	342.025	-8.878	2.331
1836.000	342.527	-8.931	2.315
1839.000	342.940	-8.985	2.298
1842.000	343.561	-9.039	2.282
1845.000	343.997	-9.094	2.266
1848.000	344.480	-9.150	2.249
1851.000	345.052	-9.207	2.232
1854.000	345.492	-9.264	2.214
1857.000	346.034	-9.321	2.197
1860.000	346.496	-9.378	2.179
1863.000	346.976	-9.437	2.160
1866.000	347.571	-9.495	2.141
1869.000	348.009	-9.552	2.122
1872.000	348.528	-9.610	2.103
1875.000	349.055	-9.668	2.083
1878.000	349.526	-9.726	2.063
1881.000	350.040	-9.784	2.043
1884.000	350.547	-9.837	2.022
1887.000	351.031	-9.889	2.002
1890.000	351.614	-9.938	1.981
1893.000	352.066	-9.985	1.960
1896.000	352.562	-10.031	1.938
1899.000	353.144	-10.075	1.917
1902.000	353.550	-10.118	1.895
1905.000	354.132	-10.157	1.872
1908.000	354.599	-10.190	1.850
1911.000	355.126	-10.221	1.828
1914.000	355.688	-10.246	1.805
1917.000	356.090	-10.267	1.782
1920.000	356.684	-10.284	1.760
1923.000	357.188	-10.296	1.737
1926.000	357.637	-10.304	1.715
1929.000	358.181	-10.306	1.692
1932.000	358.658	-10.300	1.670
1935.000	359.198	-10.289	1.647
1938.000	359.731	-10.269	1.625
1941.000	360.162	-10.243	1.602
1944.000	360.720	-10.211	1.580
1947.000	361.229	-10.171	1.558
1950.000	361.660	-10.124	1.537
1953.000	362.252	-10.069	1.516
1956.000	362.727	-10.009	1.495
1959.000	363.250	-9.942	1.475
1962.000	363.785	-9.864	1.454
1965.000	364.187	-9.778	1.435
1968.000	364.816	-9.685	1.415
1971.000	365.263	-9.586	1.397
1974.000	365.734	-9.482	1.379
1977.000	366.287	-9.368	1.361
1980.000	366.762	-9.248	1.344
1983.000	367.299	-9.122	1.328
1986.000	367.760	-8.989	1.312
1989.000	368.224	-8.853	1.296
1992.000	368.802	-8.714	1.282
1995.000	369.273	-8.571	1.268
1998.000	369.720	-8.425	1.255
2001.000	370.324	-8.274	1.243
2004.000	370.780	-8.124	1.231
2007.000	371.315	-7.969	1.220
2010.000	371.810	-7.812	1.209
2013.000	372.262	-7.658	1.199
2016.000	372.863	-7.507	1.190
2019.000	373.285	-7.360	1.182
2022.000	373.800	-7.217	1.174
2025.000	374.368	-7.077	1.167
2028.000	374.788	-6.944	1.160
2031.000	375.337	-6.815	1.154
2034.000	375.775	-6.694	1.149
2037.000	376.299	-6.580	1.144
2040.000	376.832	-6.469	1.139
2043.000	377.239	-6.359	1.135
2046.000	377.782	-6.255	1.131
2049.000	378.315	-6.159	1.128
2052.000	378.746	-6.067	1.124
2055.000	379.258	-5.979	1.121
2058.000	379.762	-5.896	1.118
2061.000	380.260	-5.819	1.116
2064.000	380.801	-5.745	1.113
2067.000	381.205	-5.678	1.111
2070.000	381.803	-5.618	1.109
2073.000	382.312	-5.564	1.107
2076.000	382.710	-5.516	1.105
2079.000	383.294	-5.473	1.103
2082.000	383.776	-5.433	1.102
2085.000	384.281	-5.399	1.100
2088.000	384.797	-5.369	1.098
2091.000	385.236	-5.342	1.097
2094.000	385.876	-5.323	1.095
2097.000	386.322	-5.303	1.093
2100.000	386.790	-5.284	1.091
2103.000	387.334	-5.266	1.090
2106.000	387.825	-5.250	1.089
2109.000	388.324	-5.236	1.087
2112.000	388.817	-5.220	1.086
2115.000	389.282	-5.207	1.084
2118.000	389.890	-5.197	1.083
2121.000	390.332	-5.185	1.082
2124.000	390.779	-5.177	1.081
2127.000	391.372	-5.169	1.079
2130.000	391.780	-5.162	1.078
2133.000	392.332	-5.155	1.076
2136.000	392.788	-5.149	1.075
2139.000	393.295	-5.145	1.074
2142.000	393.885	-5.140	1.073
2145.000	394.243	-5.136	1.071
2148.000	394.789	-5.133	1.070
2151.000	395.320	-5.129	1.069
2154.000	395.750	-5.126	1.068
2157.000	396.286	-5.124	1.066
2160.000	396.734	-5.124	1.065
2163.000	397.275	-5.127	1.064
2166.000	397.798	-5.127	1.063
2169.000	398.208	-5.127	1.061
2172.000	398.762	-5.129	1.060
2175.000	399.270	-5.134	1.059
2178.000	399.693	-5.139	1.057
2181.000	400.265	-5.143	1.056
2184.000	400.733	-5.150	1.055
2187.000	401.254	-5.158	1.054
2190.000	401.777	-5.167	1.053
2193.000	402.172	-5.176	1.051
2196.000	402.812	-5.186	1.050
2199.000	403.249	-5.194	1.049
2202.000	403.721	-5.203	1.048
2205.000	404.273	-5.212	1.046
2208.000	404.747	-5.220	1.045
2211.000	405.285	-5.229	1.044
2214.000	405.753	-5.242	1.043
2217.000	406.229	-5.257	1.041
2220.000	406.822	-5.271	1.040
2223.000	407.261	-5.284	1.038
2226.000	407.736	-5.297	1.037
2229.000	408.320	-5.312	1.036
2232.000	408.760	-5.329	1.034
2235.000	409.275	-5.344	1.033
2238.000	409.767	-5.356	1.032
2241.000	410.268	-5.370	1.031
2244.000	410.849	-5.382	1.030
2247.000	411.236	-5.397	1.028
2250.000	411.781	-5.413	1.027
2253.000	412.353	-5.434	1.025
2256.000	412.780	-5.453	1.024
2259.000	413.352	-5.471	1.023
2262.000	413.799	-5.489	1.022
2265.000	414.354	-5.508	1.020
2268.000	414.902	-5.525	1.019
2271.000	415.332	-5.541	1.018
2274.000	415.896	-5.557	1.017
2277.000	416.436	-5.573	1.015
2280.000	416.904	-5.587	1.014
2283.000	417.421	-5.600	1.013
2286.000	417.890	-5.611	1.011
2289.000	418.417	-5.625	1.010
2292.000	418.950	-5.638	1.009
2295.000	419.343	-5.652	1.008
2298.000	419.941	-5.667	1.006
2301.000	420.405	-5.681	1.005
2304.000	420.874	-5.691	1.003
2307.000	421.457	-5.702	1.002
2310.000	421.865	-5.716	1.001
2313.000	422.433	-5.732	1.000
2316.000	422.898	-5.745	0.999
2319.000	423.343	-5.762	0.997
2322.000	423.952	-5.780	0.995
2325.000	424.382	-5.797	0.994
2328.000	424.890	-5.814	0.993
2331.000	425.414	-5.831	0.992
2334.000	425.872	-5.850	0.990
2337.000	426.401	-5.869	0.989
2340.000	426.876	-5.888	0.988
2343.000	427.363	-5.910	0.987
2346.000	427.947	-5.933	0.986
2349.000	428.410	-5.953	0.984
2352.000	428.898	-5.974	0.983
2355.000	429.486	-5.996	0.982
2358.000	429.892	-6.020	0.981
2361.000	430.466	-6.041	0.980
2364.000	430.925	-6.062	0.978
2367.000	431.446	-6.083	0.977
2370.000	432.004	-6.104	0.976
2373.000	432.424	-6.126	0.975
2376.000	432.991	-6.149	0.974
2379.000	433.502	-6.172	0.973
2382.000	433.942	-6.194	0.972
2385.000	434.477	-6.213	0.971
2388.000	434.944	-6.234	0.970
2391.000	435.474	-6.258	0.969
2394.000	436.008	-6.282	0.967
2397.000	436.423	-6.307	0.966
2400.000	436.975	-6.333	0.965
2403.000	437.479	-6.358	0.964
2406.000	437.877	-6.387	0.963
2409.000	438.452	-6.413	0.962
2412.000	438.895	-6.443	0.961
2415.000	439.424	-6.478	0.960
2418.000	439.935	-6.513	0.958
2421.000	440.319	-6.553	0.958
2424.000	440.945	-6.594	0.956
2427.000	441.380	-6.633	0.955
2430.000	441.852	-6.673	0.955
2433.000	442.383	-6.710	0.954
2436.000	442.859	-6.748	0.953
2439.000	443.391	-6.790	0.952
2442.000	443.871	-6.829	0.951
2445.000	444.323	-6.870	0.950
2448.000	444.930	-6.912	0.949
2451.000	445.380	-6.954	0.948
2454.000	445.855	-6.998	0.947
2457.000	446.427	-7.037	0.946
2460.000	446.883	-7.075	0.946
2463.000	447.437	-7.112	0.945
2466.000	447.892	-7.150	0.944
2469.000	448.361	-7.189	0.943
2472.000	448.980	-7.231	0.942
2475.000	449.390	-7.275	0.941
2478.000	449.888	-7.323	0.940
2481.000	450.426	-7.372	0.939
2484.000	450.864	-7.420	0.938
2487.000	451.445	-7.464	0.938
2490.000	451.884	-7.507	0.937
2493.000	452.412	-7.552	0.936
2496.000	452.941	-7.601	0.935
2499.000	453.372	-7.651	0.934
2502.000	453.880	-7.702	0.933
2505.000	454.455	-7.748	0.933
2508.000	454.874	-7.790	0.932
2511.000	455.461	-7.826	0.931
2514.000	455.901	-7.858	0.930
2517.000	456.442	-7.892	0.930
2520.000	457.001	-7.926	0.929
2523.000	457.372	-7.962	0.928
2526.000	457.954	-7.998	0.927
2529.000	458.456	-8.034	0.926
2532.000	458.910	-8.067	0.925
2535.000	459.446	-8.100	0.924
2538.000	459.903	-8.135	0.924
2541.000	460.455	-8.172	0.923
2544.000	460.941	-8.206	0.922
2547.000	461.368	-8.238	0.921
2550.000	461.968	-8.268	0.921
2553.000	462.458	-8.299	0.920
2556.000	462.906	-8.328	0.919
2559.000	463.464	-8.352	0.918
2562.000	463.954	-8.373	0.918
2565.000	464.486	-8.395	0.917
2568.000	464.996	-8.415	0.916
2571.000	465.399	-8.440	0.916
2574.000	466.066	-8.463	0.915
2577.000	466.484	-8.486	0.914
2580.000	466.982	-8.508	0.913
2583.000	467.490	-8.535	0.912
2586.000	467.978	-8.568	0.912
2589.000	468.539	-8.603	0.911
2592.000	468.956	-8.639	0.910
2595.000	469.425	-8.678	0.910
2598.000	470.025	-8.716	0.909
2601.000	470.432	-8.753	0.908
2604.000	470.914	-8.787	0.908
2607.000	471.441	-8.819	0.907
2610.000	471.930	-8.850	0.906
2613.000	472.457	-8.875	0.905
2616.000	472.912	-8.899	0.905
2619.000	473.408	-8.922	0.904
2622.000	474.009	-8.941	0.903
2625.000	474.393	-8.958	0.903
2628.000	474.939	-8.974	0.902
2631.000	475.462	-8.989	0.901
2634.000	475.927	-9.006	0.900
2637.000	476.524	-9.023	0.899
2640.000	476.914	-9.040	0.899
2643.000	477.474	-9.061	0.898
2646.000	477.988	-9.078	0.898
2649.000	478.413	-9.094	0.897
2652.000	478.980	-9.111	0.896
2655.000	479.482	-9.130	0.896
2658.000	479.973	-9.152	0.895
2661.000	480.489	-9.172	0.894
2664.000	480.936	-9.195	0.893
2667.000	481.462	-9.227	0.892
2670.000	481.962	-9.263	0.892
2673.000	482.366	-9.297	0.891
2676.000	482.975	-9.327	0.890
2679.000	483.432	-9.358	0.889
2682.000	483.904	-9.390	0.889
2685.000	484.455	-9.422	0.888
2688.000	484.872	-9.455	0.887
2691.000	485.445	-9.491	0.886
2694.000	485.873	-9.527	0.886
2697.000	486.379	-9.566	0.885
2700.000	486.955	-9.604	0.884
2703.000	487.396	-9.647	0.883
2706.000	487.923	-9.690	0.883
2709.000	488.429	-9.728	0.882
2712.000	488.924	-9.764	0.881
2715.000	489.478	-9.797	0.880
2718.000	489.925	-9.828	0.880
2721.000	490.459	-9.858	0.879
2724.000	491.057	-9.886	0.879
2727.000	491.457	-9.910	0.878
2730.000	491.998	-9.932	0.877
2733.000	492.553	-9.954	0.876
2736.000	492.970	-9.982	0.875
2739.000	493.560	-10.013	0.875
2742.000	493.952	-10.050	0.874
2745.000	494.523	-10.087	0.873
2748.000	495.032	-10.125	0.873
2751.000	495.449	-10.163	0.872
2754.000	496.017	-10.197	0.871
2757.000	496.510	-10.232	0.870
2760.000	496.998	-10.272	0.870
2763.000	497.522	-10.309	0.869
2766.000	497.947	-10.347	0.868
2769.000	498.546	-10.385	0.868
2772.000	499.039	-10.424	0.867
2775.000	499.463	-10.467	0.866
2778.000	500.039	-10.507	0.865
2781.000	500.550	-10.545	0.865
2784.000	501.039	-10.585	0.864
2787.000	501.560	-10.623	0.864
2790.000	501.982	-10.663	0.863
2793.000	502.578	-10.703	0.862
2796.000	503.044	-10.745	0.861
2799.000	503.492	-10.788	0.860
2802.000	504.084	-10.829	0.860
2805.000	504.490	-10.870	0.859
2808.000	505.045	-10.909	0.858
2811.000	505.490	-10.945	0.858
2814.000	505.986	-10.980	0.857
2817.000	506.560	-11.016	0.857
2820.000	507.006	-11.052	0.856
2823.000	507.541	-11.090	0.855
2826.000	508.075	-11.129	0.854
2829.000	508.500	-11.167	0.854
2832.000	509.039	-11.202	0.853
2835.000	509.517	-11.234	0.852
2838.000	510.011	-11.272	0.852
2841.000	510.547	-11.311	0.851
2844.000	510.979	-11.350	0.850
2847.000	511.515	-11.389	0.850
2850.000	512.075	-11.427	0.849
2853.000	512.480	-11.461	0.848
2856.000	513.065	-11.490	0.847
2859.000	513.518	-11.515	0.847
2862.000	514.059	-11.542	0.846
2865.000	514.578	-11.565	0.845
2868.000	515.022	-11.587	0.845
2871.000	515.650	-11.611	0.844
2874.000	516.092	-11.637	0.844
2877.000	516.563	-11.666	0.843
2880.000	517.131	-11.695	0.842
2883.000	517.627	-11.721	0.842
2886.000	518.145	-11.747	0.841
2889.000	518.637	-11.774	0.840
2892.000	519.065	-11.805	0.840
2895.000	519.655	-11.840	0.839
2898.000	520.097	-11.873	0.838
2901.000	520.523	-11.903	0.837
2904.000	521.080	-11.927	0.837
2907.000	521.538	-11.949	0.836
2910.000	522.080	-11.973	0.835
2913.000	522.529	-11.993	0.835
2916.000	522.996	-12.010	0.834
2919.000	523.632	-12.026	0.833
2922.000	524.012	-12.044	0.832
2925.000	524.517	-12.066	0.831
2928.000	525.077	-12.085	0.831
2931.000	525.558	-12.104	0.830
2934.000	526.119	-12.122	0.829
2937.000	526.569	-12.138	0.829
2940.000	527.109	-12.154	0.828
2943.000	527.668	-12.171	0.828
2946.000	528.100	-12.185	0.827
2949.000	528.627	-12.198	0.826
2952.000	529.187	-12.209	0.826
2955.000	529.625	-12.222	0.825
2958.000	530.187	-12.237	0.824
2961.000	530.639	-12.255	0.824
2964.000	531.178	-12.273	0.823
2967.000	531.753	-12.288	0.822
2970.000	532.120	-12.302	0.822
2973.000	532.712	-12.314	0.821
2976.000	533.197	-12.324	0.821
2979.000	533.690	-12.335	0.820
2982.000	534.234	-12.343	0.820
2985.000	534.691	-12.352	0.819
2988.000	535.259	-12.365	0.818
2991.000	535.727	-12.378	0.817
2994.000	536.152	-12.390	0.817
2997.000	536.727	-12.404	0.816
3000.000	537.199	-12.420	0.815
3003.000	537.635	-12.438	0.814
3006.000	538.191	-12.456	0.814
3009.000	538.665	-12.473	0.813
3012.000	539.166	-12.490	0.813
3015.000	539.667	-12.505	0.812
3018.000	540.073	-12.521	0.811
3021.000	540.713	-12.536	0.811
3024.000	541.129	-12.552	0.810
3027.000	541.636	-12.569	0.810
3030.000	542.179	-12.584	0.809
3033.000	542.649	-12.602	0.808
3036.000	543.219	-12.619	0.808
3039.000	543.647	-12.635	0.807
3042.000	544.155	-12.648	0.806
3045.000	544.733	-12.661	0.805
3048.000	545.168	-12.673	0.805
3051.000	545.683	-12.688	0.804
3054.000	546.250	-12.701	0.804
3057.000	546.743	-12.718	0.803
3060.000	547.296	-12.732	0.803
3063.000	547.760	-12.746	0.802
3066.000	548.300	-12.760	0.801
3069.000	548.879	-12.773	0.801
3072.000	549.298	-12.789	0.800
3075.000	549.856	-12.806	0.800
3078.000	550.403	-12.825	0.799
3081.000	550.857	-12.846	0.798
3084.000	551.435	-12.863	0.798
3087.000	551.821	-12.879	0.797
3090.000	552.405	-12.898	0.796
3093.000	552.896	-12.918	0.796
3096.000	553.315	-12.937	0.795
3099.000	553.866	-12.956	0.795
3102.000	554.370	-12.974	0.794
3105.000	554.837	-12.995	0.794
3108.000	555.357	-13.013	0.793
3111.000	555.789	-13.031	0.792
3114.000	556.350	-13.054	0.792
3117.000	556.850	-13.076	0.791
3120.000	557.244	-13.096	0.790
3123.000	557.840	-13.116	0.790
3126.000	558.318	-13.135	0.789
3129.000	558.767	-13.155	0.788
3132.000	559.289	-13.176	0.788
3135.000	559.735	-13.197	0.787
3138.000	560.291	-13.219	0.786
3141.000	560.746	-13.237	0.785
3144.000	561.192	-13.255	0.785
3147.000	561.802	-13.277	0.784
3150.000	562.205	-13.297	0.783
3153.000	562.749	-13.318	0.783
3156.000	563.220	-13.337	0.783
3159.000	563.711	-13.356	0.782
3162.000	564.255	-13.375	0.781
3165.000	564.723	-13.391	0.780
3168.000	565.224	-13.409	0.780
3171.000	565.805	-13.428	0.779
3174.000	566.241	-13.449	0.778
3177.000	566.763	-13.470	0.778
3180.000	567.292	-13.492	0.777
3183.000	567.764	-13.515	0.777
3186.000	568.336	-13.536	0.776
3189.000	568.762	-13.557	0.775
3192.000	569.302	-13.578	0.775
3195.000	569.863	-13.598	0.774
3198.000	570.237	-13.618	0.773
3201.000	570.822	-13.639	0.773
3204.000	571.279	-13.660	0.772
3207.000	571.786	-13.678	0.772
3210.000	572.310	-13.691	0.771
3213.000	572.735	-13.707	0.770
3216.000	573.316	-13.730	0.770
3219.000	573.787	-13.755	0.769
3222.000	574.228	-13.782	0.769
3225.000	574.794	-13.807	0.768
3228.000	575.295	-13.831	0.768
3231.000	575.771	-13.856	0.767
3234.000	576.323	-13.877	0.767
3237.000	576.771	-13.894	0.766
3240.000	577.363	-13.914	0.765
3243.000	577.842	-13.934	0.764
3246.000	578.272	-13.960	0.764
3249.000	578.895	-13.985	0.763
3252.000	579.341	-14.011	0.762
3255.000	579.856	-14.035	0.762
3258.000	580.354	-14.055	0.761
3261.000	580.820	-14.074	0.761
3264.000	581.428	-14.094	0.760
3267.000	581.836	-14.113	0.759
3270.000	582.341	-14.134	0.759
3273.000	582.890	-14.156	0.758
3276.000	583.349	-14.177	0.758
3279.000	583.857	-14.197	0.757
3282.000	584.367	-14.210	0.757
3285.000	584.860	-14.225	0.756
3288.000	585.454	-14.240	0.756
3291.000	585.912	-14.261	0.755
3294.000	586.398	-14.285	0.754
3297.000	586.988	-14.312	0.754
3300.000	587.404	-14.340	0.753
3303.000	587.961	-14.368	0.752
3306.000	588.456	-14.394	0.751
3309.000	588.954	-14.423	0.751
3312.000	589.535	-14.446	0.750
3315.000	589.927	-14.470	0.750
3318.000	590.498	-14.497	0.749
3321.000	591.005	-14.523	0.748
3324.000	591.474	-14.546	0.748
3327.000	592.023	-14.568	0.748
3330.000	592.531	-14.587	0.747
3333.000	593.019	-14.607	0.746
3336.000	593.546	-14.623	0.746
3339.000	593.994	-14.640	0.745
3342.000	594.541	-14.657	0.745
3345.000	595.029	-14.676	0.744
3348.000	595.450	-14.694	0.743
3351.000	596.019	-14.711	0.743
3354.000	596.501	-14.730	0.742
3357.000	596.988	-14.746	0.741
3360.000	597.508	-14.761	0.741
3363.000	597.911	-14.780	0.740
3366.000	598.505	-14.801	0.740
3369.000	598.934	-14.821	0.739
3372.000	599.409	-14.844	0.738
3375.000	599.967	-14.866	0.738
3378.000	600.421	-14.884	0.737
3381.000	600.970	-14.896	0.736
3384.000	601.446	-14.904	0.736
3386.000	601.865	-14.911	0.736